<?xml version="1.0" encoding="UTF-8"?>

<Bundle xmlns="http://hl7.org/fhir">
  <id value="svc-Bundle-01"/>
  <identifier>
    <system value="http://hl7.eu/fhir/sid/uvci"/>
    <value value="V1CZ454557891308174803488707671418"/>
    <period>
      <start value="2020-12-27T14:30:00+01:00"/>
      <end value="2021-12-27T14:30:00+01:00"/>
    </period>
  </identifier>
  <type value="document"/>
  <timestamp value="2020-12-27T14:30:00+01:00"/>
  <entry>
    <fullUrl value="urn:uuid:30551ce1-5a28-4356-b684-1e639094ad4d"/>
    <resource>
      <Composition>
        <id value="30551ce1-5a28-4356-b684-1e639094ad4d"/>
        <text>
          <status value="generated"/><div xmlns="http://www.w3.org/1999/xhtml"><p><b>Generated Narrative</b></p><p><b>identifier</b>: id: urn:uuid:3f69e0a5-2177-4540-baab-7a5d0877428f</p><p><b>status</b>: final</p><p><b>type</b>: <span title="Codes: {http://loinc.org 82593-5}">Immunization summary report</span></p><p><b>date</b>: Dec 27, 2020, 1:30:00 PM</p><p><b>author</b>: <span>MUDr. Aleš Procházka</span></p><p><b>title</b>: Vaccine Certificate December 27, 2020 14:30</p><p><b>confidentiality</b>: N</p><h3>Attesters</h3><table class="grid"><tr><td>-</td><td><b>Mode</b></td><td><b>Time</b></td><td><b>Party</b></td></tr><tr><td>*</td><td>legal</td><td>Dec 27, 2020, 1:30:00 PM</td><td><a href="#Organization_45a5c5b1-4ec1-4d60-b4b2-ff5a84a41fd7">See above (Organization/45a5c5b1-4ec1-4d60-b4b2-ff5a84a41fd7)</a></td></tr></table><p><b>custodian</b>: <a href="#Organization_45a5c5b1-4ec1-4d60-b4b2-ff5a84a41fd7">See above (Organization/45a5c5b1-4ec1-4d60-b4b2-ff5a84a41fd7)</a></p></div>
        </text>
        <identifier>
          <system value="urn:ietf:rfc:3986"/>
          <value value="urn:uuid:3f69e0a5-2177-4540-baab-7a5d0877428f"/>
        </identifier>
        <status value="final"/>
        <type>
          <coding>
            <system value="http://loinc.org"/>
            <code value="82593-5"/>
            <display value="Immunization summary report"/>
          </coding>
        </type>
        <subject>
          <reference value="urn:uuid:2b90dd2b-2dab-4c75-9bb9-a355e07401e8"/>
        </subject>
        <date value="2020-12-27T14:30:00+01:00"/>
        <author>
          <display value="MUDr. Ale&#x161; Proch&#xE1;zka"/>
        </author>
        <title value="Vaccine Certificate December 27, 2020 14:30"/>
        <confidentiality value="N"/>
        <attester>
          <mode value="legal"/>
          <time value="2020-12-27T14:30:00+01:00"/>
          <party>
            <reference value="urn:uuid:45a5c5b1-4ec1-4d60-b4b2-ff5a84a41fd7"/>
          </party>
        </attester>
        <custodian>
          <reference value="urn:uuid:45a5c5b1-4ec1-4d60-b4b2-ff5a84a41fd7"/>
        </custodian>
        <section>
          <title value="Vaccinations"/>
          <code>
            <coding>
              <system value="http://loinc.org"/>
              <code value="11369-6"/>
              <display value="Hx of Immunization"/>
            </coding>
          </code>
          <text>
            <status value="generated"/><div xmlns="http://www.w3.org/1999/xhtml"><table><thead><tr><th>Date</th><th>Product</th><th>Vaccine</th><th>Dose</th></tr></thead><tbody><tr><td>2020-12-02</td><td>Comirnaty</td><td>COVID-19 mRNA Vaccine</td><td>1/2</td></tr><tr><td>2020-12-23</td><td>Comirnaty</td><td>COVID-19 mRNA Vaccine</td><td>2/2</td></tr></tbody></table></div>
          </text>
          <entry>
            <reference value="urn:uuid:c220e36c-eb67-4fc4-9ba1-2fabc52acec6"/>
          </entry>
          <entry>
            <reference value="urn:uuid:47524493-846a-4a26-bae2-4ab03e60f02e"/>
          </entry>
        </section>
      </Composition>
    </resource>
  </entry>
  <entry>
    <fullUrl value="urn:uuid:2b90dd2b-2dab-4c75-9bb9-a355e07401e8"/>
    <resource>
      <Patient>
        <id value="2b90dd2b-2dab-4c75-9bb9-a355e07401e8"/>
        <text>
          <status value="generated"/><div xmlns="http://www.w3.org/1999/xhtml"><p><b>Generated Narrative</b></p><p><b>identifier</b>: National Insurance Payor Identifier (Payor): 740512852, id: A225961454, Passport number: 5484136</p><p><b>name</b>: František Očkovaný </p><p><b>birthDate</b>: 2000-03-21</p></div>
        </text>
        <identifier>
          <type>
            <coding>
              <system value="http://terminology.hl7.org/CodeSystem/v2-0203"/>
              <code value="NIIP"/>
            </coding>
          </type>
          <system value="urn:oid:1.2.203.24341.1.20.2"/>
          <value value="740512852"/>
        </identifier>
        <identifier>
          <system value="urn:oid:1.2.203.24341.1.20.9.1"/>
          <value value="A225961454"/>
        </identifier>
        <identifier>
          <type>
            <coding>
              <system value="http://terminology.hl7.org/CodeSystem/v2-0203"/>
              <code value="PPN"/>
            </coding>
          </type>
          <system value="urn:oid:2.16.840.1.113883.4.330.203"/>
          <value value="5484136"/>
        </identifier>
        <name>
          <family value="O&#x10D;kovan&#xFD;"/>
          <given value="Franti&#x161;ek"/>
        </name>
        <birthDate value="2000-03-21"/>
      </Patient>
    </resource>
  </entry>
  <entry>
    <fullUrl value="urn:uuid:c220e36c-eb67-4fc4-9ba1-2fabc52acec6"/>
    <resource>
      <Immunization>
        <id value="c220e36c-eb67-4fc4-9ba1-2fabc52acec6"/>
        <text>
          <status value="generated"/><div xmlns="http://www.w3.org/1999/xhtml"><p><b>Generated Narrative</b></p><p><b>status</b>: completed</p><p><b>vaccineCode</b>: <span title="Codes: {http://snomed.info/sct 1119349007}">Comirnaty</span></p><p><b>patient</b>: <a href="#Patient_2b90dd2b-2dab-4c75-9bb9-a355e07401e8">See above (Patient/2b90dd2b-2dab-4c75-9bb9-a355e07401e8)</a></p><p><b>occurrence</b>: 2020-12-02</p><p><b>location</b>: <a href="#Location_55a5c5b1-4ec1-4d60-b4b2-ff5a84a41fd8">See above (Location/55a5c5b1-4ec1-4d60-b4b2-ff5a84a41fd8)</a></p><p><b>manufacturer</b>: <span>BioNTech Manufacturing GmbH</span></p><p><b>lotNumber</b>: B1235742</p><h3>Performers</h3><table class="grid"><tr><td>-</td><td><b>Actor</b></td></tr><tr><td>*</td><td><span>MUDr. Aleš Procházka</span></td></tr></table><h3>ProtocolApplieds</h3><table class="grid"><tr><td>-</td><td><b>TargetDisease</b></td><td><b>DoseNumber[x]</b></td><td><b>SeriesDoses[x]</b></td></tr><tr><td>*</td><td><span title="Codes: {http://snomed.info/sct 840533007}">SARS-CoV-2</span></td><td>1</td><td>2</td></tr></table></div>
        </text>
        <status value="completed"/>
        <vaccineCode>
          <coding>
            <system value="http://snomed.info/sct"/>
            <code value="1119349007"/>
            <display value="Severe acute respiratory syndrome coronavirus 2 mRNA only vaccine product"/>
          </coding>
          <text value="Comirnaty"/>
        </vaccineCode>
        <patient>
          <reference value="urn:uuid:2b90dd2b-2dab-4c75-9bb9-a355e07401e8"/>
        </patient>
        <occurrenceDateTime value="2020-12-02"/>
        <location>
          <reference value="urn:uuid:55a5c5b1-4ec1-4d60-b4b2-ff5a84a41fd8"/>
        </location>
        <manufacturer>
          <display value="BioNTech Manufacturing GmbH"/>
        </manufacturer>
        <lotNumber value="B1235742"/>
        <performer>
          <actor>
            <display value="MUDr. Ale&#x161; Proch&#xE1;zka"/>
          </actor>
        </performer>
        <protocolApplied>
          <targetDisease>
            <coding>
              <system value="http://snomed.info/sct"/>
              <code value="840533007"/>
              <display value="SARS-CoV-2"/>
            </coding>
          </targetDisease>
          <doseNumberPositiveInt value="1"/>
          <seriesDosesPositiveInt value="2"/>
        </protocolApplied>
      </Immunization>
    </resource>
  </entry>
  <entry>
    <fullUrl value="urn:uuid:47524493-846a-4a26-bae2-4ab03e60f02e"/>
    <resource>
      <Immunization>
        <id value="47524493-846a-4a26-bae2-4ab03e60f02e"/>
        <text>
          <status value="generated"/><div xmlns="http://www.w3.org/1999/xhtml"><p><b>Generated Narrative</b></p><p><b>status</b>: completed</p><p><b>vaccineCode</b>: <span title="Codes: {http://snomed.info/sct 1119349007}">Comirnaty</span></p><p><b>patient</b>: <a href="#Patient_2b90dd2b-2dab-4c75-9bb9-a355e07401e8">See above (Patient/2b90dd2b-2dab-4c75-9bb9-a355e07401e8)</a></p><p><b>occurrence</b>: 2020-12-23</p><p><b>location</b>: <a href="#Location_55a5c5b1-4ec1-4d60-b4b2-ff5a84a41fd8">See above (Location/55a5c5b1-4ec1-4d60-b4b2-ff5a84a41fd8)</a></p><p><b>manufacturer</b>: <span>BioNTech Manufacturing GmbH</span></p><p><b>lotNumber</b>: D5423452</p><h3>Performers</h3><table class="grid"><tr><td>-</td><td><b>Actor</b></td></tr><tr><td>*</td><td><span>MUDr. Jan Novák</span></td></tr></table><h3>ProtocolApplieds</h3><table class="grid"><tr><td>-</td><td><b>TargetDisease</b></td><td><b>DoseNumber[x]</b></td><td><b>SeriesDoses[x]</b></td></tr><tr><td>*</td><td><span title="Codes: {http://snomed.info/sct 840533007}">SARS-CoV-2</span></td><td>2</td><td>2</td></tr></table></div>
        </text>
        <status value="completed"/>
        <vaccineCode>
          <coding>
            <system value="http://snomed.info/sct"/>
            <code value="1119349007"/>
            <display value="Severe acute respiratory syndrome coronavirus 2 mRNA only vaccine product"/>
          </coding>
          <text value="Comirnaty"/>
        </vaccineCode>
        <patient>
          <reference value="urn:uuid:2b90dd2b-2dab-4c75-9bb9-a355e07401e8"/>
        </patient>
        <occurrenceDateTime value="2020-12-23"/>
        <location>
          <reference value="urn:uuid:55a5c5b1-4ec1-4d60-b4b2-ff5a84a41fd8"/>
        </location>
        <manufacturer>
          <display value="BioNTech Manufacturing GmbH"/>
        </manufacturer>
        <lotNumber value="D5423452"/>
        <performer>
          <actor>
            <display value="MUDr. Jan Nov&#xE1;k"/>
          </actor>
        </performer>
        <protocolApplied>
          <targetDisease>
            <coding>
              <system value="http://snomed.info/sct"/>
              <code value="840533007"/>
              <display value="SARS-CoV-2"/>
            </coding>
          </targetDisease>
          <doseNumberPositiveInt value="2"/>
          <seriesDosesPositiveInt value="2"/>
        </protocolApplied>
      </Immunization>
    </resource>
  </entry>
  <entry>
    <fullUrl value="urn:uuid:45a5c5b1-4ec1-4d60-b4b2-ff5a84a41fd7"/>
    <resource>
      <Organization>
        <id value="45a5c5b1-4ec1-4d60-b4b2-ff5a84a41fd7"/>
        <text>
          <status value="generated"/><div xmlns="http://www.w3.org/1999/xhtml"><p><b>Generated Narrative</b></p><p><b>identifier</b>: id: 24341</p><p><b>name</b>: Ministry of Health of the Czech Republic</p></div>
        </text>
        <identifier>
          <system value="urn:oid:1.2.203"/>
          <value value="24341"/>
        </identifier>
        <name value="Ministry of Health of the Czech Republic"/>
      </Organization>
    </resource>
  </entry>
  <entry>
    <fullUrl value="urn:uuid:55a5c5b1-4ec1-4d60-b4b2-ff5a84a41fd8"/>
    <resource>
      <Location>
        <id value="55a5c5b1-4ec1-4d60-b4b2-ff5a84a41fd8"/>
        <text>
          <status value="generated"/><div xmlns="http://www.w3.org/1999/xhtml"><p><b>Generated Narrative</b></p><p><b>name</b>: Hospital Na Františku Prague</p><p><b>address</b>: Prague CZ </p></div>
        </text>
        <name value="Hospital Na Franti&#x161;ku Prague"/>
        <address>
          <city value="Prague"/>
          <country value="CZ"/>
        </address>
      </Location>
    </resource>
  </entry>
</Bundle>