{
  "resourceType": "Bundle",
  "id": "svc-Bundle-08",
  "identifier": {
    "system": "http://hl7.eu/fhir/sid/uvci",
    "value": "V1IT56561234212111112222333344",
    "period": {
      "start": "2020-12-27",
      "end": "2021-12-27"
    }
  },
  "type": "document",
  "timestamp": "2020-12-27T14:30:00+01:00",
  "entry": [
    {
      "fullUrl": "urn:uuid:b1995ae1-0c52-48cb-b019-afbfc6f92881",
      "resource": {
        "resourceType": "Composition",
        "id": "b1995ae1-0c52-48cb-b019-afbfc6f92881",
        "text": {
          "status": "generated",
          "div": "<div xmlns=\"http://www.w3.org/1999/xhtml\"><p><b>Generated Narrative</b></p><p><b>status</b>: final</p><p><b>type</b>: <span title=\"Codes: {http://loinc.org 82593-5}\">Immunization summary report</span></p><p><b>date</b>: Feb 26, 2021, 1:30:00 PM</p><p><b>author</b>: <a href=\"#Organization_c42c2a63-1852-4ec9-8cdc-c400ccf3d19d\">See above (Organization/c42c2a63-1852-4ec9-8cdc-c400ccf3d19d)</a></p><p><b>title</b>: Vaccine Certificate December 27, 2020 14:30</p><p><b>confidentiality</b>: N</p><h3>Attesters</h3><table class=\"grid\"><tr><td>-</td><td><b>Mode</b></td><td><b>Time</b></td><td><b>Party</b></td></tr><tr><td>*</td><td>legal</td><td>Feb 26, 2021, 1:30:00 PM</td><td><a href=\"#Organization_c42c2a63-1852-4ec9-8cdc-c400ccf3d19d\">See above (Organization/c42c2a63-1852-4ec9-8cdc-c400ccf3d19d)</a></td></tr></table><p><b>custodian</b>: <a href=\"#Organization_c42c2a63-1852-4ec9-8cdc-c400ccf3d19d\">See above (Organization/c42c2a63-1852-4ec9-8cdc-c400ccf3d19d)</a></p></div>"
        },
        "status": "final",
        "type": {
          "coding": [
            {
              "system": "http://loinc.org",
              "code": "82593-5",
              "display": "Immunization summary report"
            }
          ]
        },
        "subject": {
          "reference": "urn:uuid:194fa246-0822-43ce-8b1e-14efa9c197c2"
        },
        "date": "2021-02-26T14:30:00+01:00",
        "author": [
          {
            "reference": "urn:uuid:c42c2a63-1852-4ec9-8cdc-c400ccf3d19d"
          }
        ],
        "title": "Vaccine Certificate December 27, 2020 14:30",
        "confidentiality": "N",
        "attester": [
          {
            "mode": "legal",
            "time": "2021-02-26T14:30:00+01:00",
            "party": {
              "reference": "urn:uuid:c42c2a63-1852-4ec9-8cdc-c400ccf3d19d"
            }
          }
        ],
        "custodian": {
          "reference": "urn:uuid:c42c2a63-1852-4ec9-8cdc-c400ccf3d19d"
        },
        "section": [
          {
            "title": "Vaccinations",
            "code": {
              "coding": [
                {
                  "system": "http://loinc.org",
                  "code": "11369-6",
                  "display": "Hx of Immunization"
                }
              ]
            },
            "text": {
              "status": "generated",
              "div": "<div xmlns=\"http://www.w3.org/1999/xhtml\"><table><thead><tr><th>Date</th><th>Product</th><th>Vaccine</th><th>Dose</th></tr></thead><tbody><tr><td>2021-02-04</td><td>Comirnaty</td><td>COVID-19 mRNA Vaccine</td><td>1</td></tr><tr><td>2021-02-25</td><td>Comirnaty</td><td>COVID-19 mRNA Vaccine</td><td>2</td></tr></tbody></table></div>"
            },
            "entry": [
              {
                "reference": "urn:uuid:c4b6cb5d-9968-4624-9247-f00e13a43f8c"
              },
              {
                "reference": "urn:uuid:025589f0-2e11-45f5-a63d-375cbf600eb7"
              }
            ]
          }
        ]
      }
    },
    {
      "fullUrl": "urn:uuid:194fa246-0822-43ce-8b1e-14efa9c197c2",
      "resource": {
        "resourceType": "Patient",
        "id": "194fa246-0822-43ce-8b1e-14efa9c197c2",
        "text": {
          "status": "extensions",
          "div": "<div xmlns=\"http://www.w3.org/1999/xhtml\"><p><b>Generated Narrative</b></p><p><b>Birth Place</b>: Italia </p><p><b>identifier</b>: id: LGHDNT71E01D612Q</p><p><b>active</b>: true</p><p><b>name</b>: DANTE ALIGHIERI (OFFICIAL)</p><p><b>gender</b>: male</p><p><b>birthDate</b>: 1971-05-01</p><p><b>address</b>: </p><ul><li>Viale della Repubblica 12, PANTIGLIATE - 20090 - Italia(HOME)</li><li>Via Capitolina 27 - interno 5b - 34131 - TRIESTE(HOME)</li></ul><h3>Contacts</h3><table class=\"grid\"><tr><td>-</td><td><b>Telecom</b></td></tr><tr><td>*</td><td>ph: 33312345678</td></tr></table></div>"
        },
        "extension": [
          {
            "url": "http://hl7.org/fhir/StructureDefinition/patient-birthPlace",
            "valueAddress": {
              "country": "Italia",
              "_country": {
                "extension": [
                  {
                    "url": "http://hl7.org/fhir/StructureDefinition/iso21090-SC-coding",
                    "valueCoding": {
                      "system": "http://terminology.hl7.it/CodeSystem/mef-ae-comuni",
                      "code": "F979",
                      "display": "NUORO"
                    }
                  }
                ]
              }
            }
          }
        ],
        "identifier": [
          {
            "extension": [
              {
                "extension": [
                  {
                    "url": "when",
                    "valueDateTime": "2020-04-06"
                  },
                  {
                    "url": "who",
                    "valueCodeableConcept": {
                      "coding": [
                        {
                          "system": "http://terminology.hl7.it/CodeSystem/it-tipoEntita",
                          "code": "mef",
                          "display": "Ministero Economia e Finanze"
                        }
                      ]
                    }
                  }
                ],
                "url": "http://hl7.it/fhir/StructureDefinition/recordCertification"
              }
            ],
            "system": "http://hl7.it/sid/codiceFiscale",
            "value": "LGHDNT71E01D612Q"
          }
        ],
        "active": true,
        "name": [
          {
            "use": "official",
            "family": "ALIGHIERI",
            "given": [
              "DANTE"
            ]
          }
        ],
        "gender": "male",
        "birthDate": "1971-05-01",
        "address": [
          {
            "extension": [
              {
                "url": "http://hl7.org/fhir/StructureDefinition/address-official",
                "valueBoolean": true
              }
            ],
            "use": "home",
            "type": "postal",
            "text": "Viale della Repubblica 12, PANTIGLIATE - 20090 - Italia",
            "line": [
              "Viale della Repubblica 12, scala 2"
            ],
            "_line": [
              {
                "extension": [
                  {
                    "url": "http://hl7.org/fhir/StructureDefinition/iso21090-ADXP-streetName",
                    "valueString": "Viale della Repubblica"
                  },
                  {
                    "url": "http://hl7.org/fhir/StructureDefinition/iso21090-ADXP-streetNameType",
                    "valueString": "VIALE"
                  },
                  {
                    "url": "http://hl7.it/fhir/StructureDefinition/address-dug",
                    "valueCodeableConcept": {
                      "coding": [
                        {
                          "system": "http://registry.geodati.gov.it/dug",
                          "code": "76",
                          "display": "viale"
                        }
                      ]
                    }
                  },
                  {
                    "url": "http://hl7.org/fhir/StructureDefinition/iso21090-ADXP-streetNameBase",
                    "valueString": "DELLA REPUBBLICA"
                  },
                  {
                    "url": "http://hl7.org/fhir/StructureDefinition/iso21090-ADXP-houseNumber",
                    "valueString": "12"
                  },
                  {
                    "url": "http://hl7.org/fhir/StructureDefinition/iso21090-ADXP-additionalLocator",
                    "valueString": "scala 2"
                  }
                ]
              }
            ],
            "city": "PANTIGLIATE",
            "postalCode": "20090",
            "country": "Italia"
          },
          {
            "extension": [
              {
                "url": "http://hl7.org/fhir/StructureDefinition/address-official",
                "valueBoolean": false
              }
            ],
            "use": "home",
            "type": "postal",
            "text": "Via Capitolina 27 - interno 5b - 34131 - TRIESTE",
            "line": [
              "Via Capitolina 27 - interno 5b"
            ],
            "city": "TRIESTE",
            "postalCode": "34131",
            "country": "Italia",
            "period": {
              "start": "2009-06-09T00:00:00+02:00"
            }
          }
        ],
        "contact": [
          {
            "telecom": [
              {
                "system": "phone",
                "value": "33312345678"
              }
            ]
          }
        ]
      }
    },
    {
      "fullUrl": "urn:uuid:c4b6cb5d-9968-4624-9247-f00e13a43f8c",
      "resource": {
        "resourceType": "Immunization",
        "id": "c4b6cb5d-9968-4624-9247-f00e13a43f8c",
        "text": {
          "status": "generated",
          "div": "<div xmlns=\"http://www.w3.org/1999/xhtml\"><p><b>Generated Narrative</b></p><p><b>status</b>: completed</p><p><b>vaccineCode</b>: <span title=\"Codes: {https://www.aifa.gov.it/aic 049269018}, {http://snomed.info/sct 1119349007}, {http://www.whocc.no/atc J07BX03}, {http://id.who.int/icd11/mms XM6AT1}\">COMIRNATY Vaccino a mRNA contro COVID-19  (modificato a livello dei nucleosidi)</span></p><p><b>patient</b>: <a href=\"#Patient_194fa246-0822-43ce-8b1e-14efa9c197c2\">See above (Patient/194fa246-0822-43ce-8b1e-14efa9c197c2)</a></p><p><b>occurrence</b>: 2021-02-04</p><p><b>lotNumber</b>: EL0725</p><p><b>site</b>: <span title=\"Codes: \">deltoide</span></p><p><b>route</b>: <span title=\"Codes: \">intramuscolare</span></p><blockquote><p><b>performer</b></p><p><b>actor</b>: <span>Az. USL Toscana centro</span></p></blockquote><blockquote><p><b>performer</b></p><p><b>actor</b>: <a href=\"#Organization_c42c2a63-1852-4ec9-8cdc-c400ccf3d19d\">See above (Organization/c42c2a63-1852-4ec9-8cdc-c400ccf3d19d)</a></p></blockquote><h3>ProtocolApplieds</h3><table class=\"grid\"><tr><td>-</td><td><b>TargetDisease</b></td><td><b>DoseNumber[x]</b></td></tr><tr><td>*</td><td><span title=\"Codes: {http://hl7.org/fhir/sid/icd-10 J12.82}\">Pneumonia due to coronavirus disease 2019</span>, <span title=\"Codes: {http://id.who.int/icd11/mms XN109}\">SARS-CoV-2</span>, <span title=\"Codes: {http://snomed.info/sct 840533007}\">2019 novel coronavirus</span></td><td>1</td></tr></table></div>"
        },
        "status": "completed",
        "vaccineCode": {
          "coding": [
            {
              "system": "https://www.aifa.gov.it/aic",
              "code": "049269018",
              "display": "0,45 ML- CONCENTRATO PER DISPERSIONE INIETTABILE- VIA INTRAMUSCOLARE- FLACONCINO (VETRO) 0,45 ML (6 DOSI)- 195 FLACONCINI MULTIDOSE (1170 DOSI)"
            },
            {
              "system": "http://snomed.info/sct",
              "code": "1119349007",
              "display": "Severe acute respiratory syndrome coronavirus 2 mRNA only vaccine product"
            },
            {
              "system": "http://www.whocc.no/atc",
              "code": "J07BX03",
              "display": "covid-19 vaccines"
            },
            {
              "system": "http://id.who.int/icd11/mms",
              "code": "XM6AT1",
              "display": "COVID-19 vaccine, DNA based"
            }
          ],
          "text": "COMIRNATY Vaccino a mRNA contro COVID-19  (modificato a livello dei nucleosidi)"
        },
        "patient": {
          "reference": "urn:uuid:194fa246-0822-43ce-8b1e-14efa9c197c2"
        },
        "occurrenceDateTime": "2021-02-04",
        "lotNumber": "EL0725",
        "site": {
          "text": "deltoide"
        },
        "route": {
          "text": "intramuscolare"
        },
        "performer": [
          {
            "actor": {
              "display": "Az. USL Toscana centro"
            }
          },
          {
            "actor": {
              "reference": "urn:uuid:c42c2a63-1852-4ec9-8cdc-c400ccf3d19d"
            }
          }
        ],
        "protocolApplied": [
          {
            "targetDisease": [
              {
                "coding": [
                  {
                    "system": "http://hl7.org/fhir/sid/icd-10",
                    "code": "J12.82",
                    "display": "Pneumonia due to coronavirus disease 2019"
                  }
                ]
              },
              {
                "coding": [
                  {
                    "system": "http://id.who.int/icd11/mms",
                    "code": "XN109",
                    "display": "SARS-CoV-2"
                  }
                ]
              },
              {
                "coding": [
                  {
                    "system": "http://snomed.info/sct",
                    "code": "840533007",
                    "display": "2019 novel coronavirus"
                  }
                ]
              }
            ],
            "doseNumberPositiveInt": 1
          }
        ]
      }
    },
    {
      "fullUrl": "urn:uuid:025589f0-2e11-45f5-a63d-375cbf600eb7",
      "resource": {
        "resourceType": "Immunization",
        "id": "025589f0-2e11-45f5-a63d-375cbf600eb7",
        "text": {
          "status": "generated",
          "div": "<div xmlns=\"http://www.w3.org/1999/xhtml\"><p><b>Generated Narrative</b></p><p><b>status</b>: completed</p><p><b>vaccineCode</b>: <span title=\"Codes: {https://www.aifa.gov.it/aic 049269018}, {http://snomed.info/sct 1119349007}, {http://www.whocc.no/atc J07BX03}, {http://id.who.int/icd11/mms XM6AT1}\">COMIRNATY Vaccino a mRNA contro COVID-19  (modificato a livello dei nucleosidi)</span></p><p><b>patient</b>: <a href=\"#Patient_194fa246-0822-43ce-8b1e-14efa9c197c2\">See above (Patient/194fa246-0822-43ce-8b1e-14efa9c197c2)</a></p><p><b>occurrence</b>: 2021-02-25</p><p><b>lotNumber</b>: EL0727</p><p><b>site</b>: <span title=\"Codes: \">deltoide</span></p><p><b>route</b>: <span title=\"Codes: \">intramuscolare</span></p><blockquote><p><b>performer</b></p><p><b>actor</b>: <span>Az. USL Toscana centro</span></p></blockquote><blockquote><p><b>performer</b></p><p><b>actor</b>: <a href=\"#Organization_c42c2a63-1852-4ec9-8cdc-c400ccf3d19d\">See above (Organization/c42c2a63-1852-4ec9-8cdc-c400ccf3d19d)</a></p></blockquote><h3>ProtocolApplieds</h3><table class=\"grid\"><tr><td>-</td><td><b>TargetDisease</b></td><td><b>DoseNumber[x]</b></td></tr><tr><td>*</td><td><span title=\"Codes: {http://hl7.org/fhir/sid/icd-10 J12.82}\">Pneumonia due to coronavirus disease 2019</span>, <span title=\"Codes: {http://id.who.int/icd11/mms XN109}\">SARS-CoV-2</span>, <span title=\"Codes: {http://snomed.info/sct 840533007}\">2019 novel coronavirus</span></td><td>2</td></tr></table></div>"
        },
        "status": "completed",
        "vaccineCode": {
          "coding": [
            {
              "system": "https://www.aifa.gov.it/aic",
              "code": "049269018",
              "display": "0,45 ML- CONCENTRATO PER DISPERSIONE INIETTABILE- VIA INTRAMUSCOLARE- FLACONCINO (VETRO) 0,45 ML (6 DOSI)- 195 FLACONCINI MULTIDOSE (1170 DOSI)"
            },
            {
              "system": "http://snomed.info/sct",
              "code": "1119349007",
              "display": "Severe acute respiratory syndrome coronavirus 2 mRNA only vaccine product"
            },
            {
              "system": "http://www.whocc.no/atc",
              "code": "J07BX03",
              "display": "covid-19 vaccines"
            },
            {
              "system": "http://id.who.int/icd11/mms",
              "code": "XM6AT1",
              "display": "COVID-19 vaccine, DNA based"
            }
          ],
          "text": "COMIRNATY Vaccino a mRNA contro COVID-19  (modificato a livello dei nucleosidi)"
        },
        "patient": {
          "reference": "urn:uuid:194fa246-0822-43ce-8b1e-14efa9c197c2"
        },
        "occurrenceDateTime": "2021-02-25",
        "lotNumber": "EL0727",
        "site": {
          "text": "deltoide"
        },
        "route": {
          "text": "intramuscolare"
        },
        "performer": [
          {
            "actor": {
              "display": "Az. USL Toscana centro"
            }
          },
          {
            "actor": {
              "reference": "urn:uuid:c42c2a63-1852-4ec9-8cdc-c400ccf3d19d"
            }
          }
        ],
        "protocolApplied": [
          {
            "targetDisease": [
              {
                "coding": [
                  {
                    "system": "http://hl7.org/fhir/sid/icd-10",
                    "code": "J12.82",
                    "display": "Pneumonia due to coronavirus disease 2019"
                  }
                ]
              },
              {
                "coding": [
                  {
                    "system": "http://id.who.int/icd11/mms",
                    "code": "XN109",
                    "display": "SARS-CoV-2"
                  }
                ]
              },
              {
                "coding": [
                  {
                    "system": "http://snomed.info/sct",
                    "code": "840533007",
                    "display": "2019 novel coronavirus"
                  }
                ]
              }
            ],
            "doseNumberPositiveInt": 2
          }
        ]
      }
    },
    {
      "fullUrl": "urn:uuid:c42c2a63-1852-4ec9-8cdc-c400ccf3d19d",
      "resource": {
        "resourceType": "Organization",
        "id": "c42c2a63-1852-4ec9-8cdc-c400ccf3d19d",
        "text": {
          "status": "generated",
          "div": "<div xmlns=\"http://www.w3.org/1999/xhtml\"><p><b>Generated Narrative</b></p><p><b>identifier</b>: id: 090201, id: 201, id: 06593810481 , id: 06593810481 </p><p><b>active</b>: true</p><p><b>type</b>: <span title=\"Codes: {http://terminology.hl7.it/CodeSystem/it-tipoEntita asl}\">Azienda Sanitaria Locale</span></p><p><b>name</b>: AZIENDA USL TOSCANA CENTRO</p><p><b>telecom</b>: ph: (055) 6939222, fax: (055) 6939223, <a href=\"mailto:direttore.generale@uslcentro.toscana.it\">direttore.generale@uslcentro.toscana.it</a>, <a href=\"www.uslcentro.toscana.it\">www.uslcentro.toscana.it</a></p><p><b>address</b>: PIAZZA SANTA MARIA NUOVA 1 FIRENZE TOSCANA 50122 IT </p></div>"
        },
        "identifier": [
          {
            "system": "http://hl7.it/sid/fls",
            "value": "090201"
          },
          {
            "system": "http://hl7.it/sid/toscana/asl",
            "value": "201"
          },
          {
            "system": "http://hl7.it/sid/partitaIva",
            "value": "06593810481 "
          },
          {
            "system": "http://hl7.it/sid/codiceFiscale",
            "value": "06593810481 "
          }
        ],
        "active": true,
        "type": [
          {
            "coding": [
              {
                "system": "http://terminology.hl7.it/CodeSystem/it-tipoEntita",
                "code": "asl",
                "display": "Azienda Sanitaria Locale"
              }
            ]
          }
        ],
        "name": "AZIENDA USL TOSCANA CENTRO",
        "telecom": [
          {
            "system": "phone",
            "value": "(055) 6939222"
          },
          {
            "system": "fax",
            "value": "(055) 6939223"
          },
          {
            "system": "email",
            "value": "direttore.generale@uslcentro.toscana.it"
          },
          {
            "system": "url",
            "value": "www.uslcentro.toscana.it"
          }
        ],
        "address": [
          {
            "line": [
              "PIAZZA SANTA MARIA NUOVA 1"
            ],
            "city": "FIRENZE",
            "_city": {
              "extension": [
                {
                  "url": "http://hl7.org/fhir/StructureDefinition/iso21090-SC-coding",
                  "valueCoding": {
                    "system": "http://terminology.hl7.it/CodeSystem/istat-unitaAmministrativeTerritoriali",
                    "code": "007003",
                    "display": "AOSTA"
                  }
                }
              ]
            },
            "district": "FI",
            "state": "TOSCANA",
            "_state": {
              "extension": [
                {
                  "url": "http://hl7.org/fhir/StructureDefinition/iso21090-SC-coding",
                  "valueCoding": {
                    "system": "http://terminology.hl7.it/CodeSystem/minsan-regione",
                    "code": "090",
                    "display": "TOSCANA"
                  }
                }
              ]
            },
            "postalCode": "50122",
            "country": "IT"
          }
        ]
      }
    }
  ]
}