{
  "resourceType": "Bundle",
  "id": "svc-Bundle-01",
  "identifier": {
    "system": "http://hl7.eu/fhir/sid/uvci",
    "value": "V1CZ454557891308174803488707671418",
    "period": {
      "start": "2020-12-27T14:30:00+01:00",
      "end": "2021-12-27T14:30:00+01:00"
    }
  },
  "type": "document",
  "timestamp": "2020-12-27T14:30:00+01:00",
  "entry": [
    {
      "fullUrl": "urn:uuid:30551ce1-5a28-4356-b684-1e639094ad4d",
      "resource": {
        "resourceType": "Composition",
        "id": "30551ce1-5a28-4356-b684-1e639094ad4d",
        "text": {
          "status": "generated",
          "div": "<div xmlns=\"http://www.w3.org/1999/xhtml\"><p><b>Generated Narrative</b></p><p><b>identifier</b>: id: urn:uuid:3f69e0a5-2177-4540-baab-7a5d0877428f</p><p><b>status</b>: final</p><p><b>type</b>: <span title=\"Codes: {http://loinc.org 82593-5}\">Immunization summary report</span></p><p><b>date</b>: Dec 27, 2020, 1:30:00 PM</p><p><b>author</b>: <span>MUDr. Aleš Procházka</span></p><p><b>title</b>: Vaccine Certificate December 27, 2020 14:30</p><p><b>confidentiality</b>: N</p><h3>Attesters</h3><table class=\"grid\"><tr><td>-</td><td><b>Mode</b></td><td><b>Time</b></td><td><b>Party</b></td></tr><tr><td>*</td><td>legal</td><td>Dec 27, 2020, 1:30:00 PM</td><td><a href=\"#Organization_45a5c5b1-4ec1-4d60-b4b2-ff5a84a41fd7\">See above (Organization/45a5c5b1-4ec1-4d60-b4b2-ff5a84a41fd7)</a></td></tr></table><p><b>custodian</b>: <a href=\"#Organization_45a5c5b1-4ec1-4d60-b4b2-ff5a84a41fd7\">See above (Organization/45a5c5b1-4ec1-4d60-b4b2-ff5a84a41fd7)</a></p></div>"
        },
        "identifier": {
          "system": "urn:ietf:rfc:3986",
          "value": "urn:uuid:3f69e0a5-2177-4540-baab-7a5d0877428f"
        },
        "status": "final",
        "type": {
          "coding": [
            {
              "system": "http://loinc.org",
              "code": "82593-5",
              "display": "Immunization summary report"
            }
          ]
        },
        "subject": {
          "reference": "urn:uuid:2b90dd2b-2dab-4c75-9bb9-a355e07401e8"
        },
        "date": "2020-12-27T14:30:00+01:00",
        "author": [
          {
            "display": "MUDr. Aleš Procházka"
          }
        ],
        "title": "Vaccine Certificate December 27, 2020 14:30",
        "confidentiality": "N",
        "attester": [
          {
            "mode": "legal",
            "time": "2020-12-27T14:30:00+01:00",
            "party": {
              "reference": "urn:uuid:45a5c5b1-4ec1-4d60-b4b2-ff5a84a41fd7"
            }
          }
        ],
        "custodian": {
          "reference": "urn:uuid:45a5c5b1-4ec1-4d60-b4b2-ff5a84a41fd7"
        },
        "section": [
          {
            "title": "Vaccinations",
            "code": {
              "coding": [
                {
                  "system": "http://loinc.org",
                  "code": "11369-6",
                  "display": "Hx of Immunization"
                }
              ]
            },
            "text": {
              "status": "generated",
              "div": "<div xmlns=\"http://www.w3.org/1999/xhtml\"><table><thead><tr><th>Date</th><th>Product</th><th>Vaccine</th><th>Dose</th></tr></thead><tbody><tr><td>2020-12-02</td><td>Comirnaty</td><td>COVID-19 mRNA Vaccine</td><td>1/2</td></tr><tr><td>2020-12-23</td><td>Comirnaty</td><td>COVID-19 mRNA Vaccine</td><td>2/2</td></tr></tbody></table></div>"
            },
            "entry": [
              {
                "reference": "urn:uuid:c220e36c-eb67-4fc4-9ba1-2fabc52acec6"
              },
              {
                "reference": "urn:uuid:47524493-846a-4a26-bae2-4ab03e60f02e"
              }
            ]
          }
        ]
      }
    },
    {
      "fullUrl": "urn:uuid:2b90dd2b-2dab-4c75-9bb9-a355e07401e8",
      "resource": {
        "resourceType": "Patient",
        "id": "2b90dd2b-2dab-4c75-9bb9-a355e07401e8",
        "text": {
          "status": "generated",
          "div": "<div xmlns=\"http://www.w3.org/1999/xhtml\"><p><b>Generated Narrative</b></p><p><b>identifier</b>: National Insurance Payor Identifier (Payor): 740512852, id: A225961454, Passport number: 5484136</p><p><b>name</b>: František Očkovaný </p><p><b>birthDate</b>: 2000-03-21</p></div>"
        },
        "identifier": [
          {
            "type": {
              "coding": [
                {
                  "system": "http://terminology.hl7.org/CodeSystem/v2-0203",
                  "code": "NIIP"
                }
              ]
            },
            "system": "urn:oid:1.2.203.24341.1.20.2",
            "value": "740512852"
          },
          {
            "system": "urn:oid:1.2.203.24341.1.20.9.1",
            "value": "A225961454"
          },
          {
            "type": {
              "coding": [
                {
                  "system": "http://terminology.hl7.org/CodeSystem/v2-0203",
                  "code": "PPN"
                }
              ]
            },
            "system": "urn:oid:2.16.840.1.113883.4.330.203",
            "value": "5484136"
          }
        ],
        "name": [
          {
            "family": "Očkovaný",
            "given": [
              "František"
            ]
          }
        ],
        "birthDate": "2000-03-21"
      }
    },
    {
      "fullUrl": "urn:uuid:c220e36c-eb67-4fc4-9ba1-2fabc52acec6",
      "resource": {
        "resourceType": "Immunization",
        "id": "c220e36c-eb67-4fc4-9ba1-2fabc52acec6",
        "text": {
          "status": "generated",
          "div": "<div xmlns=\"http://www.w3.org/1999/xhtml\"><p><b>Generated Narrative</b></p><p><b>status</b>: completed</p><p><b>vaccineCode</b>: <span title=\"Codes: {http://snomed.info/sct 1119349007}\">Comirnaty</span></p><p><b>patient</b>: <a href=\"#Patient_2b90dd2b-2dab-4c75-9bb9-a355e07401e8\">See above (Patient/2b90dd2b-2dab-4c75-9bb9-a355e07401e8)</a></p><p><b>occurrence</b>: 2020-12-02</p><p><b>location</b>: <a href=\"#Location_55a5c5b1-4ec1-4d60-b4b2-ff5a84a41fd8\">See above (Location/55a5c5b1-4ec1-4d60-b4b2-ff5a84a41fd8)</a></p><p><b>manufacturer</b>: <span>BioNTech Manufacturing GmbH</span></p><p><b>lotNumber</b>: B1235742</p><h3>Performers</h3><table class=\"grid\"><tr><td>-</td><td><b>Actor</b></td></tr><tr><td>*</td><td><span>MUDr. Aleš Procházka</span></td></tr></table><h3>ProtocolApplieds</h3><table class=\"grid\"><tr><td>-</td><td><b>TargetDisease</b></td><td><b>DoseNumber[x]</b></td><td><b>SeriesDoses[x]</b></td></tr><tr><td>*</td><td><span title=\"Codes: {http://snomed.info/sct 840533007}\">SARS-CoV-2</span></td><td>1</td><td>2</td></tr></table></div>"
        },
        "status": "completed",
        "vaccineCode": {
          "coding": [
            {
              "system": "http://snomed.info/sct",
              "code": "1119349007",
              "display": "Severe acute respiratory syndrome coronavirus 2 mRNA only vaccine product"
            }
          ],
          "text": "Comirnaty"
        },
        "patient": {
          "reference": "urn:uuid:2b90dd2b-2dab-4c75-9bb9-a355e07401e8"
        },
        "occurrenceDateTime": "2020-12-02",
        "location": {
          "reference": "urn:uuid:55a5c5b1-4ec1-4d60-b4b2-ff5a84a41fd8"
        },
        "manufacturer": {
          "display": "BioNTech Manufacturing GmbH"
        },
        "lotNumber": "B1235742",
        "performer": [
          {
            "actor": {
              "display": "MUDr. Aleš Procházka"
            }
          }
        ],
        "protocolApplied": [
          {
            "targetDisease": [
              {
                "coding": [
                  {
                    "system": "http://snomed.info/sct",
                    "code": "840533007",
                    "display": "SARS-CoV-2"
                  }
                ]
              }
            ],
            "doseNumberPositiveInt": 1,
            "seriesDosesPositiveInt": 2
          }
        ]
      }
    },
    {
      "fullUrl": "urn:uuid:47524493-846a-4a26-bae2-4ab03e60f02e",
      "resource": {
        "resourceType": "Immunization",
        "id": "47524493-846a-4a26-bae2-4ab03e60f02e",
        "text": {
          "status": "generated",
          "div": "<div xmlns=\"http://www.w3.org/1999/xhtml\"><p><b>Generated Narrative</b></p><p><b>status</b>: completed</p><p><b>vaccineCode</b>: <span title=\"Codes: {http://snomed.info/sct 1119349007}\">Comirnaty</span></p><p><b>patient</b>: <a href=\"#Patient_2b90dd2b-2dab-4c75-9bb9-a355e07401e8\">See above (Patient/2b90dd2b-2dab-4c75-9bb9-a355e07401e8)</a></p><p><b>occurrence</b>: 2020-12-23</p><p><b>location</b>: <a href=\"#Location_55a5c5b1-4ec1-4d60-b4b2-ff5a84a41fd8\">See above (Location/55a5c5b1-4ec1-4d60-b4b2-ff5a84a41fd8)</a></p><p><b>manufacturer</b>: <span>BioNTech Manufacturing GmbH</span></p><p><b>lotNumber</b>: D5423452</p><h3>Performers</h3><table class=\"grid\"><tr><td>-</td><td><b>Actor</b></td></tr><tr><td>*</td><td><span>MUDr. Jan Novák</span></td></tr></table><h3>ProtocolApplieds</h3><table class=\"grid\"><tr><td>-</td><td><b>TargetDisease</b></td><td><b>DoseNumber[x]</b></td><td><b>SeriesDoses[x]</b></td></tr><tr><td>*</td><td><span title=\"Codes: {http://snomed.info/sct 840533007}\">SARS-CoV-2</span></td><td>2</td><td>2</td></tr></table></div>"
        },
        "status": "completed",
        "vaccineCode": {
          "coding": [
            {
              "system": "http://snomed.info/sct",
              "code": "1119349007",
              "display": "Severe acute respiratory syndrome coronavirus 2 mRNA only vaccine product"
            }
          ],
          "text": "Comirnaty"
        },
        "patient": {
          "reference": "urn:uuid:2b90dd2b-2dab-4c75-9bb9-a355e07401e8"
        },
        "occurrenceDateTime": "2020-12-23",
        "location": {
          "reference": "urn:uuid:55a5c5b1-4ec1-4d60-b4b2-ff5a84a41fd8"
        },
        "manufacturer": {
          "display": "BioNTech Manufacturing GmbH"
        },
        "lotNumber": "D5423452",
        "performer": [
          {
            "actor": {
              "display": "MUDr. Jan Novák"
            }
          }
        ],
        "protocolApplied": [
          {
            "targetDisease": [
              {
                "coding": [
                  {
                    "system": "http://snomed.info/sct",
                    "code": "840533007",
                    "display": "SARS-CoV-2"
                  }
                ]
              }
            ],
            "doseNumberPositiveInt": 2,
            "seriesDosesPositiveInt": 2
          }
        ]
      }
    },
    {
      "fullUrl": "urn:uuid:45a5c5b1-4ec1-4d60-b4b2-ff5a84a41fd7",
      "resource": {
        "resourceType": "Organization",
        "id": "45a5c5b1-4ec1-4d60-b4b2-ff5a84a41fd7",
        "text": {
          "status": "generated",
          "div": "<div xmlns=\"http://www.w3.org/1999/xhtml\"><p><b>Generated Narrative</b></p><p><b>identifier</b>: id: 24341</p><p><b>name</b>: Ministry of Health of the Czech Republic</p></div>"
        },
        "identifier": [
          {
            "system": "urn:oid:1.2.203",
            "value": "24341"
          }
        ],
        "name": "Ministry of Health of the Czech Republic"
      }
    },
    {
      "fullUrl": "urn:uuid:55a5c5b1-4ec1-4d60-b4b2-ff5a84a41fd8",
      "resource": {
        "resourceType": "Location",
        "id": "55a5c5b1-4ec1-4d60-b4b2-ff5a84a41fd8",
        "text": {
          "status": "generated",
          "div": "<div xmlns=\"http://www.w3.org/1999/xhtml\"><p><b>Generated Narrative</b></p><p><b>name</b>: Hospital Na Františku Prague</p><p><b>address</b>: Prague CZ </p></div>"
        },
        "name": "Hospital Na Františku Prague",
        "address": {
          "city": "Prague",
          "country": "CZ"
        }
      }
    }
  ]
}